,Frequency (Hz),V(V),U(V),Delta Phase (Degrees)
0,10.0,8.1,8.1,0.05
1,100.0,8.1,8.1,0.1
2,1000.0,8.1,8.0,0.8
3,5000.0,9.2,7.9,5.3
4,10000.0,14.3,6.4,22.2
5,13109.0,16.0,3.6,93.4
6,11000.0,15.8,5.4,33.2
7,12000.0,16.6,4.2,54.1
8,14000.0,14.4,4.2,122.4
9,15000.0,12.2,5.1,141.0
10,17000.0,8.4,6.4,156.0
11,22000.0,4.0,7.4,167.0
12,26000.0,2.6,7.7,170.0
13,100000.0,0.14,8.0,176.0
